File: GB2(2).emsa
#FORMAT      : EMSA/MAS Spectral Data File
#VERSION     : 1.0
#TITLE       : GB2(2)
#DATE        : 25-APR-2018
#TIME        : 12:43: 8
#OWNER       :
#NPOINTS     : 2048
#NCOLUMNS    : 1
#XUNITS      : keV
#YUNITS      : Intensity
#DATATYPE    : XY
#XPERCHAN    : 0.01
#OFFSET      : 0.000000000
#CHOFFSET    : 0.000000
#SIGNALTYPE  : EDS
#XLABEL      : X-Ray Energy
#YLABEL      : X-Ray Intensity
#BEAMKV   -kV: 200.0
#EMISSION -uA: 0.0000
#PROBECUR -nA: 0.3000
#BEAMDIAM -nm: 0.0
#MAGCAM      : 3000000.0
#OPERMODE    : IMAG
#XTILTSTGE-dg: 5.000
#YTILTSTGE-dg: 0.000
#XPOSITION   : -150.263
#YPOSITION   : -234.725
#ZPOSITION   : -8.055
#ELEVANGLE-dg: 19.12
#AZIMANGLE-dg: 90.00
#SOLIDANGL-sR: 0.7561
#LIVETIME  -s: 180.000
#REALTIME  -s: 195.342
#TPYWIND  -cm: 1.00E-06
#TAUWIND  -cm: 2.00E-06
#TDEADLYR -cm: 1.00E-06
#EDSDET      : SiUTW
#COMMENT     : The following parameters are defined by Thermo Fisher Scientific
##INSTRUMENT : NSS Microanalysis System
##DETNAME    : SDD Detector
##CONTAM     : 0.00E+00
##CONTAMTYPE : NONE
##WORKDIST   : 3.80
##STAGEROT   : 0.000
##SLIDEPOS   : 11.500
##CRYSTMATL  : Si-Drift
##CRYSTAREA  : 100.000
##CRYSTTHICK : 0.450
##WINTYPE    : PARYLENE
##CONTMATL   : SDD_LELMT
##WINDCOAT   : ALUMINUM
##WINDTHICK  : 0.020
##DEADTIME   : 15.342
##TIMECNSTNT : 6400
##EDSBOARDREV: 2
##ZEROWIDTH  : 36.000
##DETECTS    : 1181322
##CONVERTS   : 1065754
##STORES     : 1007885
##ESCPKSREM  : 1
##ZEROPKSREM : 0
##SUMPKSREM  : 1
##ZEROCUTOFF : 0.000
##DETSUBTYPE : 2
##EXPONENT   : 0.000
##LOWEVADJ   : 0.000
##BEAMX      : -1.000
##BEAMY      : -1.000
##CHARGE     : 0.00E+00
##QUANT_DATE : (null)
##QUANT_CHI  : 0.000
##FITTYPE    : 0
##MATRIXCORR : 0
##PEAKLAB    : 0.258000  C Ka  2
##PEAKLAB    : 0.523000  O Ka  2
##PEAKLAB    : 0.704000  Fe La1  2
##PEAKLAB    : 0.775000  Co La1  2
##PEAKLAB    : 1.110000  Ga La1  2
##PEAKLAB    : 1.487000  Al Ka  2
##PEAKLAB    : 2.289000  Mo La1  2
##PEAKLAB    : 2.410000  Mo Lb1  2
##PEAKLAB    : 6.391000  Fe Ka  2
##PEAKLAB    : 6.911000  Co Ka1  2
##PEAKLAB    : 9.226000  Ga Ka1  2
##PEAKLAB    : 17.426  Mo Ka1  2
##PEAKLAB    : 19.56  Mo Kb1  2
##PEAKLAB    : 1.254000  Mg Ka  2
##PEAKLAB    : 1.296000  Mg Kb  2
##PEAKLAB    : 1.553000  Al Kb  2
##PEAKLAB    : 1.740000  Si Ka  2
##PEAKLAB    : 1.829000  Si Kb  2
##PEAKLAB    : 0.091000  Si L2,3-M  2
##PEAKLAB    : 3.690000  Ca Ka  2
##PEAKLAB    : 4.012000  Ca Kb1  2
##PEAKLAB    : 0.302000  Ca Ll  2
##PEAKLAB    : 0.341000  Ca La1  2
##PEAKLAB    : 0.306000  Ca Ln  2
##PEAKLAB    : 0.344000  Ca Lb1  2
#SPECTRUM    :
0.0000, 31316.0,
0.0200, 43593.0,
0.0400, 12047.0,
0.0600,  1107.0,
0.0800,   127.0,
0.1000,    95.0,
0.1200,   111.0,
0.1400,   132.0,
0.1600,   178.0,
0.1800,   191.0,
0.2000,   253.0,
0.2200,   278.0,
0.2400,   304.0,
0.2600,   337.0,
0.2800,   369.0,
0.3000,   322.0,
0.3200,   312.0,
0.3400,   387.0,
0.3600,   407.0,
0.3800,   507.0,
0.4000,   591.0,
0.4200,   815.0,
0.4400,  1363.0,
0.4600,  3724.0,
0.4800, 13203.0,
0.5000, 33157.0,
0.5200, 44045.0,
0.5400, 29426.0,
0.5600,  9652.0,
0.5800,  1781.0,
0.6000,   380.0,
0.6200,   219.0,
0.6400,   234.0,
0.6600,   243.0,
0.6800,   216.0,
0.7000,   251.0,
0.7200,   201.0,
0.7400,   209.0,
0.7600,   194.0,
0.7800,   245.0,
0.8000,   243.0,
0.8200,   222.0,
0.8400,   253.0,
0.8600,   258.0,
0.8800,   250.0,
0.9000,   270.0,
0.9200,   292.0,
0.9400,   259.0,
0.9600,   270.0,
0.9800,   294.0,
1.0000,   281.0,
1.0200,   313.0,
1.0400,   309.0,
1.0600,   353.0,
1.0800,   342.0,
1.1000,   417.0,
1.1200,   398.0,
1.1400,   353.0,
1.1600,   280.0,
1.1800,   315.0,
1.2000,   364.0,
1.2200,   360.0,
1.2400,   390.0,
1.2600,   435.0,
1.2800,   494.0,
1.3000,   486.0,
1.3200,   530.0,
1.3400,   535.0,
1.3600,   597.0,
1.3800,   841.0,
1.4000,  2235.0,
1.4200,  7844.0,
1.4400, 22196.0,
1.4600, 43031.0,
1.4800, 54921.0,
1.5000, 45913.0,
1.5200, 26310.0,
1.5400, 10768.0,
1.5600,  3693.0,
1.5800,  1457.0,
1.6000,   676.0,
1.6200,   345.0,
1.6400,   245.0,
1.6600,   178.0,
1.6800,   147.0,
1.7000,   160.0,
1.7200,   156.0,
1.7400,   136.0,
1.7600,   130.0,
1.7800,   147.0,
1.8000,   135.0,
1.8200,   141.0,
1.8400,   136.0,
1.8600,   128.0,
1.8800,   115.0,
1.9000,   136.0,
1.9200,   140.0,
1.9400,   134.0,
1.9600,   169.0,
1.9800,   172.0,
2.0000,   175.0,
2.0200,   174.0,
2.0400,   159.0,
2.0600,   155.0,
2.0800,   138.0,
2.1000,   136.0,
2.1200,   116.0,
2.1400,   126.0,
2.1600,   111.0,
2.1800,   139.0,
2.2000,   126.0,
2.2200,   188.0,
2.2400,   233.0,
2.2600,   288.0,
2.2800,   384.0,
2.3000,   367.0,
2.3200,   309.0,
2.3400,   229.0,
2.3600,   253.0,
2.3800,   241.0,
2.4000,   236.0,
2.4200,   215.0,
2.4400,   169.0,
2.4600,   147.0,
2.4800,   140.0,
2.5000,   143.0,
2.5200,   124.0,
2.5400,   121.0,
2.5600,   120.0,
2.5800,   128.0,
2.6000,    80.0,
2.6200,   101.0,
2.6400,    94.0,
2.6600,    93.0,
2.6800,   112.0,
2.7000,   105.0,
2.7200,   109.0,
2.7400,    95.0,
2.7600,   101.0,
2.7800,   122.0,
2.8000,    87.0,
2.8200,   102.0,
2.8400,   105.0,
2.8600,    96.0,
2.8800,   104.0,
2.9000,   109.0,
2.9200,   119.0,
2.9400,   124.0,
2.9600,   129.0,
2.9800,   117.0,
3.0000,   106.0,
3.0200,   106.0,
3.0400,   108.0,
3.0600,   100.0,
3.0800,    76.0,
3.1000,    80.0,
3.1200,    95.0,
3.1400,    91.0,
3.1600,    92.0,
3.1800,    66.0,
3.2000,   103.0,
3.2200,    82.0,
3.2400,    87.0,
3.2600,    85.0,
3.2800,    82.0,
3.3000,    87.0,
3.3200,    86.0,
3.3400,    88.0,
3.3600,    78.0,
3.3800,    73.0,
3.4000,    78.0,
3.4200,    81.0,
3.4400,    75.0,
3.4600,    78.0,
3.4800,    70.0,
3.5000,    74.0,
3.5200,    85.0,
3.5400,    75.0,
3.5600,    76.0,
3.5800,    82.0,
3.6000,    72.0,
3.6200,    77.0,
3.6400,    78.0,
3.6600,    78.0,
3.6800,    60.0,
3.7000,    70.0,
3.7200,    64.0,
3.7400,    88.0,
3.7600,    63.0,
3.7800,    62.0,
3.8000,    55.0,
3.8200,    82.0,
3.8400,    77.0,
3.8600,    75.0,
3.8800,    63.0,
3.9000,    66.0,
3.9200,    54.0,
3.9400,    61.0,
3.9600,    70.0,
3.9800,    71.0,
4.0000,    57.0,
4.0200,    59.0,
4.0400,    64.0,
4.0600,    77.0,
4.0800,    50.0,
4.1000,    67.0,
4.1200,    49.0,
4.1400,    59.0,
4.1600,    51.0,
4.1800,    78.0,
4.2000,    68.0,
4.2200,    55.0,
4.2400,    65.0,
4.2600,    60.0,
4.2800,    61.0,
4.3000,    60.0,
4.3200,    55.0,
4.3400,    52.0,
4.3600,    62.0,
4.3800,    52.0,
4.4000,    79.0,
4.4200,    61.0,
4.4400,    71.0,
4.4600,    85.0,
4.4800,    63.0,
4.5000,    73.0,
4.5200,    63.0,
4.5400,    66.0,
4.5600,    61.0,
4.5800,    65.0,
4.6000,    57.0,
4.6200,    54.0,
4.6400,    65.0,
4.6600,    60.0,
4.6800,    51.0,
4.7000,    67.0,
4.7200,    66.0,
4.7400,    61.0,
4.7600,    60.0,
4.7800,    70.0,
4.8000,    42.0,
4.8200,    52.0,
4.8400,    41.0,
4.8600,    56.0,
4.8800,    61.0,
4.9000,    51.0,
4.9200,    67.0,
4.9400,    68.0,
4.9600,    47.0,
4.9800,    70.0,
5.0000,    53.0,
5.0200,    40.0,
5.0400,    53.0,
5.0600,    61.0,
5.0800,    49.0,
5.1000,    46.0,
5.1200,    50.0,
5.1400,    49.0,
5.1600,    53.0,
5.1800,    49.0,
5.2000,    63.0,
5.2200,    44.0,
5.2400,    49.0,
5.2600,    68.0,
5.2800,    50.0,
5.3000,    51.0,
5.3200,    51.0,
5.3400,    57.0,
5.3600,    49.0,
5.3800,    55.0,
5.4000,    37.0,
5.4200,    57.0,
5.4400,    46.0,
5.4600,    51.0,
5.4800,    44.0,
5.5000,    59.0,
5.5200,    53.0,
5.5400,    40.0,
5.5600,    46.0,
5.5800,    48.0,
5.6000,    49.0,
5.6200,    43.0,
5.6400,    41.0,
5.6600,    35.0,
5.6800,    46.0,
5.7000,    39.0,
5.7200,    44.0,
5.7400,    50.0,
5.7600,    51.0,
5.7800,    44.0,
5.8000,    51.0,
5.8200,    41.0,
5.8400,    46.0,
5.8600,    52.0,
5.8800,    49.0,
5.9000,    51.0,
5.9200,    48.0,
5.9400,    51.0,
5.9600,    52.0,
5.9800,    37.0,
6.0000,    39.0,
6.0200,    41.0,
6.0400,    52.0,
6.0600,    30.0,
6.0800,    46.0,
6.1000,    38.0,
6.1200,    49.0,
6.1400,    43.0,
6.1600,    39.0,
6.1800,    41.0,
6.2000,    42.0,
6.2200,    58.0,
6.2400,    46.0,
6.2600,    50.0,
6.2800,    45.0,
6.3000,    62.0,
6.3200,    81.0,
6.3400,    84.0,
6.3600,   110.0,
6.3800,   103.0,
6.4000,   107.0,
6.4200,   106.0,
6.4400,    75.0,
6.4600,    71.0,
6.4800,    53.0,
6.5000,    54.0,
6.5200,    55.0,
6.5400,    52.0,
6.5600,    27.0,
6.5800,    53.0,
6.6000,    37.0,
6.6200,    34.0,
6.6400,    38.0,
6.6600,    57.0,
6.6800,    44.0,
6.7000,    43.0,
6.7200,    42.0,
6.7400,    54.0,
6.7600,    38.0,
6.7800,    43.0,
6.8000,    54.0,
6.8200,    66.0,
6.8400,    59.0,
6.8600,    91.0,
6.8800,   102.0,
6.9000,   127.0,
6.9200,    95.0,
6.9400,   104.0,
6.9600,    92.0,
6.9800,    83.0,
7.0000,    53.0,
7.0200,    66.0,
7.0400,    50.0,
7.0600,    53.0,
7.0800,    48.0,
7.1000,    42.0,
7.1200,    35.0,
7.1400,    30.0,
7.1600,    39.0,
7.1800,    41.0,
7.2000,    41.0,
7.2200,    45.0,
7.2400,    43.0,
7.2600,    44.0,
7.2800,    37.0,
7.3000,    38.0,
7.3200,    34.0,
7.3400,    31.0,
7.3600,    34.0,
7.3800,    42.0,
7.4000,    48.0,
7.4200,    30.0,
7.4400,    34.0,
7.4600,    48.0,
7.4800,    29.0,
7.5000,    37.0,
7.5200,    41.0,
7.5400,    26.0,
7.5600,    34.0,
7.5800,    40.0,
7.6000,    42.0,
7.6200,    37.0,
7.6400,    34.0,
7.6600,    30.0,
7.6800,    41.0,
7.7000,    25.0,
7.7200,    31.0,
7.7400,    42.0,
7.7600,    42.0,
7.7800,    41.0,
7.8000,    35.0,
7.8200,    28.0,
7.8400,    30.0,
7.8600,    37.0,
7.8800,    31.0,
7.9000,    33.0,
7.9200,    35.0,
7.9400,    42.0,
7.9600,    32.0,
7.9800,    35.0,
8.0000,    39.0,
8.0200,    35.0,
8.0400,    34.0,
8.0600,    46.0,
8.0800,    42.0,
8.1000,    25.0,
8.1200,    45.0,
8.1400,    30.0,
8.1600,    34.0,
8.1800,    32.0,
8.2000,    34.0,
8.2200,    39.0,
8.2400,    24.0,
8.2600,    23.0,
8.2800,    47.0,
8.3000,    39.0,
8.3200,    23.0,
8.3400,    28.0,
8.3600,    29.0,
8.3800,    26.0,
8.4000,    43.0,
8.4200,    27.0,
8.4400,    44.0,
8.4600,    29.0,
8.4800,    32.0,
8.5000,    35.0,
8.5200,    29.0,
8.5400,    30.0,
8.5600,    40.0,
8.5800,    35.0,
8.6000,    33.0,
8.6200,    35.0,
8.6400,    29.0,
8.6600,    19.0,
8.6800,    23.0,
8.7000,    32.0,
8.7200,    22.0,
8.7400,    41.0,
8.7600,    21.0,
8.7800,    26.0,
8.8000,    24.0,
8.8200,    36.0,
8.8400,    32.0,
8.8600,    28.0,
8.8800,    25.0,
8.9000,    16.0,
8.9200,    30.0,
8.9400,    36.0,
8.9600,    35.0,
8.9800,    27.0,
9.0000,    31.0,
9.0200,    28.0,
9.0400,    16.0,
9.0600,    27.0,
9.0800,    39.0,
9.1000,    24.0,
9.1200,    37.0,
9.1400,    44.0,
9.1600,    45.0,
9.1800,    55.0,
9.2000,    64.0,
9.2200,    50.0,
9.2400,    59.0,
9.2600,    52.0,
9.2800,    47.0,
9.3000,    51.0,
9.3200,    35.0,
9.3400,    41.0,
9.3600,    38.0,
9.3800,    32.0,
9.4000,    28.0,
9.4200,    32.0,
9.4400,    18.0,
9.4600,    23.0,
9.4800,    28.0,
9.5000,    27.0,
9.5200,    23.0,
9.5400,    32.0,
9.5600,    26.0,
9.5800,    34.0,
9.6000,    40.0,
9.6200,    28.0,
9.6400,    45.0,
9.6600,    45.0,
9.6800,    53.0,
9.7000,    34.0,
9.7200,    41.0,
9.7400,    47.0,
9.7600,    32.0,
9.7800,    37.0,
9.8000,    37.0,
9.8200,    34.0,
9.8400,    21.0,
9.8600,    27.0,
9.8800,    25.0,
9.9000,    24.0,
9.9200,    24.0,
9.9400,    26.0,
9.9600,    27.0,
9.9800,    25.0,
10.0000,    20.0,
10.0200,    26.0,
10.0400,    20.0,
10.0600,    26.0,
10.0800,    28.0,
10.1000,    24.0,
10.1200,    22.0,
10.1400,    28.0,
10.1600,    29.0,
10.1800,    24.0,
10.2000,    33.0,
10.2200,    34.0,
10.2400,    29.0,
10.2600,    25.0,
10.2800,    25.0,
10.3000,    35.0,
10.3200,    31.0,
10.3400,    19.0,
10.3600,    33.0,
10.3800,    36.0,
10.4000,    31.0,
10.4200,    34.0,
10.4400,    28.0,
10.4600,    32.0,
10.4800,    33.0,
10.5000,    31.0,
10.5200,    47.0,
10.5400,    37.0,
10.5600,    30.0,
10.5800,    23.0,
10.6000,    27.0,
10.6200,    34.0,
10.6400,    32.0,
10.6600,    31.0,
10.6800,    27.0,
10.7000,    31.0,
10.7200,    19.0,
10.7400,    28.0,
10.7600,    22.0,
10.7800,    21.0,
10.8000,    21.0,
10.8200,    22.0,
10.8400,    28.0,
10.8600,    35.0,
10.8800,    25.0,
10.9000,    18.0,
10.9200,    27.0,
10.9400,    22.0,
10.9600,    20.0,
10.9800,    21.0,
11.0000,    16.0,
11.0200,    23.0,
11.0400,    21.0,
11.0600,    24.0,
11.0800,    23.0,
11.1000,    25.0,
11.1200,    12.0,
11.1400,    20.0,
11.1600,    21.0,
11.1800,    22.0,
11.2000,    26.0,
11.2200,    24.0,
11.2400,    24.0,
11.2600,    28.0,
11.2800,    23.0,
11.3000,    21.0,
11.3200,    32.0,
11.3400,    34.0,
11.3600,    26.0,
11.3800,    40.0,
11.4000,    30.0,
11.4200,    40.0,
11.4400,    24.0,
11.4600,    42.0,
11.4800,    36.0,
11.5000,    31.0,
11.5200,    42.0,
11.5400,    33.0,
11.5600,    33.0,
11.5800,    34.0,
11.6000,    31.0,
11.6200,    34.0,
11.6400,    23.0,
11.6600,    30.0,
11.6800,    33.0,
11.7000,    17.0,
11.7200,    20.0,
11.7400,    25.0,
11.7600,    13.0,
11.7800,    25.0,
11.8000,    21.0,
11.8200,    13.0,
11.8400,    21.0,
11.8600,    19.0,
11.8800,    26.0,
11.9000,    21.0,
11.9200,    18.0,
11.9400,    30.0,
11.9600,    16.0,
11.9800,    18.0,
12.0000,    22.0,
12.0200,    18.0,
12.0400,    19.0,
12.0600,    18.0,
12.0800,    25.0,
12.1000,    22.0,
12.1200,    14.0,
12.1400,    25.0,
12.1600,    19.0,
12.1800,    20.0,
12.2000,    21.0,
12.2200,    13.0,
12.2400,    19.0,
12.2600,    17.0,
12.2800,    26.0,
12.3000,    18.0,
12.3200,    24.0,
12.3400,    10.0,
12.3600,    27.0,
12.3800,    17.0,
12.4000,    24.0,
12.4200,    21.0,
12.4400,    30.0,
12.4600,    20.0,
12.4800,    25.0,
12.5000,    24.0,
12.5200,    21.0,
12.5400,    32.0,
12.5600,    27.0,
12.5800,    25.0,
12.6000,    34.0,
12.6200,    33.0,
12.6400,    36.0,
12.6600,    26.0,
12.6800,    29.0,
12.7000,    19.0,
12.7200,    25.0,
12.7400,    29.0,
12.7600,    32.0,
12.7800,    23.0,
12.8000,    17.0,
12.8200,    17.0,
12.8400,    25.0,
12.8600,    17.0,
12.8800,    17.0,
12.9000,    15.0,
12.9200,    18.0,
12.9400,    17.0,
12.9600,    17.0,
12.9800,    18.0,
13.0000,    18.0,
13.0200,    24.0,
13.0400,    14.0,
13.0600,    18.0,
13.0800,    16.0,
13.1000,    17.0,
13.1200,    24.0,
13.1400,    16.0,
13.1600,    14.0,
13.1800,    23.0,
13.2000,    18.0,
13.2200,    22.0,
13.2400,    16.0,
13.2600,    15.0,
13.2800,    14.0,
13.3000,    14.0,
13.3200,    12.0,
13.3400,    15.0,
13.3600,    18.0,
13.3800,    19.0,
13.4000,    26.0,
13.4200,    18.0,
13.4400,    19.0,
13.4600,    23.0,
13.4800,    25.0,
13.5000,    11.0,
13.5200,    16.0,
13.5400,    18.0,
13.5600,    15.0,
13.5800,    16.0,
13.6000,     8.0,
13.6200,    16.0,
13.6400,    18.0,
13.6600,    15.0,
13.6800,    15.0,
13.7000,    13.0,
13.7200,    13.0,
13.7400,    16.0,
13.7600,    16.0,
13.7800,    16.0,
13.8000,    12.0,
13.8200,    14.0,
13.8400,    15.0,
13.8600,    10.0,
13.8800,    19.0,
13.9000,    17.0,
13.9200,    11.0,
13.9400,    19.0,
13.9600,    15.0,
13.9800,    12.0,
14.0000,    24.0,
14.0200,    13.0,
14.0400,    21.0,
14.0600,     7.0,
14.0800,    16.0,
14.1000,    20.0,
14.1200,    17.0,
14.1400,    16.0,
14.1600,    15.0,
14.1800,    18.0,
14.2000,    16.0,
14.2200,    18.0,
14.2400,    13.0,
14.2600,    13.0,
14.2800,    15.0,
14.3000,    15.0,
14.3200,    25.0,
14.3400,    15.0,
14.3600,    14.0,
14.3800,     9.0,
14.4000,    12.0,
14.4200,    17.0,
14.4400,    17.0,
14.4600,    16.0,
14.4800,    25.0,
14.5000,    10.0,
14.5200,    15.0,
14.5400,    15.0,
14.5600,    17.0,
14.5800,    14.0,
14.6000,     7.0,
14.6200,    10.0,
14.6400,    13.0,
14.6600,    13.0,
14.6800,    19.0,
14.7000,    20.0,
14.7200,    13.0,
14.7400,    16.0,
14.7600,    14.0,
14.7800,    18.0,
14.8000,     8.0,
14.8200,    11.0,
14.8400,    13.0,
14.8600,    11.0,
14.8800,     8.0,
14.9000,    15.0,
14.9200,    14.0,
14.9400,    15.0,
14.9600,    18.0,
14.9800,    14.0,
15.0000,    14.0,
15.0200,    11.0,
15.0400,    12.0,
15.0600,    15.0,
15.0800,    19.0,
15.1000,     9.0,
15.1200,    11.0,
15.1400,    13.0,
15.1600,     5.0,
15.1800,    11.0,
15.2000,    19.0,
15.2200,     9.0,
15.2400,    13.0,
15.2600,    11.0,
15.2800,    11.0,
15.3000,    10.0,
15.3200,     3.0,
15.3400,     8.0,
15.3600,     8.0,
15.3800,    18.0,
15.4000,    15.0,
15.4200,    10.0,
15.4400,     9.0,
15.4600,    13.0,
15.4800,    21.0,
15.5000,    15.0,
15.5200,    12.0,
15.5400,    14.0,
15.5600,    14.0,
15.5800,    11.0,
15.6000,    10.0,
15.6200,    20.0,
15.6400,    14.0,
15.6600,     9.0,
15.6800,    16.0,
15.7000,    15.0,
15.7200,    15.0,
15.7400,    11.0,
15.7600,    13.0,
15.7800,    10.0,
15.8000,    18.0,
15.8200,    14.0,
15.8400,    11.0,
15.8600,    10.0,
15.8800,    14.0,
15.9000,     9.0,
15.9200,    10.0,
15.9400,    14.0,
15.9600,    14.0,
15.9800,     9.0,
16.0000,    15.0,
16.0200,     6.0,
16.0400,    12.0,
16.0600,    10.0,
16.0800,    11.0,
16.1000,     5.0,
16.1200,    10.0,
16.1400,    11.0,
16.1600,     7.0,
16.1800,     6.0,
16.2000,    11.0,
16.2200,    10.0,
16.2400,    10.0,
16.2600,    11.0,
16.2800,    11.0,
16.3000,    12.0,
16.3200,    13.0,
16.3400,    12.0,
16.3600,    17.0,
16.3800,     8.0,
16.4000,    15.0,
16.4200,    18.0,
16.4400,     9.0,
16.4600,     3.0,
16.4800,    13.0,
16.5000,     6.0,
16.5200,    12.0,
16.5400,    14.0,
16.5600,    16.0,
16.5800,     9.0,
16.6000,     8.0,
16.6200,    14.0,
16.6400,     9.0,
16.6600,     9.0,
16.6800,    17.0,
16.7000,    11.0,
16.7200,    18.0,
16.7400,    16.0,
16.7600,    14.0,
16.7800,    10.0,
16.8000,    15.0,
16.8200,    13.0,
16.8400,    12.0,
16.8600,     8.0,
16.8800,     5.0,
16.9000,     9.0,
16.9200,     7.0,
16.9400,    12.0,
16.9600,    10.0,
16.9800,    13.0,
17.0000,    11.0,
17.0200,    13.0,
17.0400,    11.0,
17.0600,     6.0,
17.0800,    10.0,
17.1000,    15.0,
17.1200,    21.0,
17.1400,    19.0,
17.1600,    23.0,
17.1800,    34.0,
17.2000,    58.0,
17.2200,    69.0,
17.2400,    99.0,
17.2600,   120.0,
17.2800,   162.0,
17.3000,   176.0,
17.3200,   213.0,
17.3400,   231.0,
17.3600,   301.0,
17.3800,   298.0,
17.4000,   307.0,
17.4200,   331.0,
17.4400,   320.0,
17.4600,   314.0,
17.4800,   289.0,
17.5000,   258.0,
17.5200,   221.0,
17.5400,   155.0,
17.5600,   124.0,
17.5800,    91.0,
17.6000,    70.0,
17.6200,    37.0,
17.6400,    33.0,
17.6600,    23.0,
17.6800,    16.0,
17.7000,    11.0,
17.7200,    10.0,
17.7400,    12.0,
17.7600,    14.0,
17.7800,     8.0,
17.8000,    12.0,
17.8200,    11.0,
17.8400,    14.0,
17.8600,     7.0,
17.8800,     5.0,
17.9000,     5.0,
17.9200,     5.0,
17.9400,     7.0,
17.9600,    10.0,
17.9800,     5.0,
18.0000,     8.0,
18.0200,     8.0,
18.0400,    11.0,
18.0600,    10.0,
18.0800,     9.0,
18.1000,     3.0,
18.1200,    15.0,
18.1400,     5.0,
18.1600,     8.0,
18.1800,    10.0,
18.2000,     6.0,
18.2200,     8.0,
18.2400,    11.0,
18.2600,     7.0,
18.2800,     6.0,
18.3000,     5.0,
18.3200,     7.0,
18.3400,     7.0,
18.3600,    11.0,
18.3800,     9.0,
18.4000,     6.0,
18.4200,     7.0,
18.4400,     9.0,
18.4600,     9.0,
18.4800,     5.0,
18.5000,     6.0,
18.5200,    11.0,
18.5400,     8.0,
18.5600,     7.0,
18.5800,     5.0,
18.6000,     3.0,
18.6200,     6.0,
18.6400,    11.0,
18.6600,     3.0,
18.6800,     9.0,
18.7000,     7.0,
18.7200,     5.0,
18.7400,     8.0,
18.7600,     7.0,
18.7800,     6.0,
18.8000,     9.0,
18.8200,    10.0,
18.8400,    11.0,
18.8600,     7.0,
18.8800,    10.0,
18.9000,     8.0,
18.9200,     6.0,
18.9400,    11.0,
18.9600,     7.0,
18.9800,     8.0,
19.0000,     7.0,
19.0200,     6.0,
19.0400,     6.0,
19.0600,     4.0,
19.0800,    13.0,
19.1000,     4.0,
19.1200,     5.0,
19.1400,    11.0,
19.1600,     5.0,
19.1800,     9.0,
19.2000,     4.0,
19.2200,     8.0,
19.2400,     7.0,
19.2600,     8.0,
19.2800,    11.0,
19.3000,     4.0,
19.3200,     7.0,
19.3400,    11.0,
19.3600,    13.0,
19.3800,     9.0,
19.4000,    14.0,
19.4200,    24.0,
19.4400,    13.0,
19.4600,    26.0,
19.4800,    52.0,
19.5000,    36.0,
19.5200,    52.0,
19.5400,    59.0,
19.5600,    71.0,
19.5800,    50.0,
19.6000,    46.0,
19.6200,    49.0,
19.6400,    40.0,
19.6600,    27.0,
19.6800,    33.0,
19.7000,    19.0,
19.7200,    24.0,
19.7400,    19.0,
19.7600,    23.0,
19.7800,    10.0,
19.8000,    11.0,
19.8200,    11.0,
19.8400,     9.0,
19.8600,     6.0,
19.8800,    17.0,
19.9000,    16.0,
19.9200,     8.0,
19.9400,    12.0,
19.9600,     9.0,
19.9800,    11.0,
20.0000,     7.0,
20.0200,     7.0,
20.0400,     8.0,
20.0600,     7.0,
20.0800,    11.0,
20.1000,     6.0,
20.1200,     4.0,
20.1400,     2.0,
20.1600,     7.0,
20.1800,     3.0,
20.2000,     6.0,
20.2200,     4.0,
20.2400,     5.0,
20.2600,     3.0,
20.2800,     5.0,
20.3000,     6.0,
20.3200,     3.0,
20.3400,     3.0,
20.3600,     1.0,
20.3800,     5.0,
20.4000,     0.0,
20.4200,     6.0,
20.4400,     0.0,
20.4600,     1.0,
20.4700,     3.0,
#ENDOFDATA   :