File: GB2(3).emsa
#FORMAT      : EMSA/MAS Spectral Data File
#VERSION     : 1.0
#TITLE       : GB2(3)
#DATE        : 25-APR-2018
#TIME        : 12:46:32
#OWNER       :
#NPOINTS     : 2048
#NCOLUMNS    : 1
#XUNITS      : keV
#YUNITS      : Intensity
#DATATYPE    : XY
#XPERCHAN    : 0.01
#OFFSET      : 0.000000000
#CHOFFSET    : 0.000000
#SIGNALTYPE  : EDS
#XLABEL      : X-Ray Energy
#YLABEL      : X-Ray Intensity
#BEAMKV   -kV: 200.0
#EMISSION -uA: 0.0000
#PROBECUR -nA: 0.3000
#BEAMDIAM -nm: 0.0
#MAGCAM      : 3000000.0
#OPERMODE    : IMAG
#XTILTSTGE-dg: 5.000
#YTILTSTGE-dg: 0.000
#XPOSITION   : -150.263
#YPOSITION   : -234.725
#ZPOSITION   : -8.055
#ELEVANGLE-dg: 19.12
#AZIMANGLE-dg: 90.00
#SOLIDANGL-sR: 0.7561
#LIVETIME  -s: 180.000
#REALTIME  -s: 195.292
#TPYWIND  -cm: 1.00E-06
#TAUWIND  -cm: 2.00E-06
#TDEADLYR -cm: 1.00E-06
#EDSDET      : SiUTW
#COMMENT     : The following parameters are defined by Thermo Fisher Scientific
##INSTRUMENT : NSS Microanalysis System
##DETNAME    : SDD Detector
##CONTAM     : 0.00E+00
##CONTAMTYPE : NONE
##WORKDIST   : 3.80
##STAGEROT   : 0.000
##SLIDEPOS   : 11.500
##CRYSTMATL  : Si-Drift
##CRYSTAREA  : 100.000
##CRYSTTHICK : 0.450
##WINTYPE    : PARYLENE
##CONTMATL   : SDD_LELMT
##WINDCOAT   : ALUMINUM
##WINDTHICK  : 0.020
##DEADTIME   : 15.292
##TIMECNSTNT : 6400
##EDSBOARDREV: 2
##ZEROWIDTH  : 40.000
##DETECTS    : 1177849
##CONVERTS   : 1062053
##STORES     : 1004329
##ESCPKSREM  : 1
##ZEROPKSREM : 0
##SUMPKSREM  : 1
##ZEROCUTOFF : 0.000
##DETSUBTYPE : 2
##EXPONENT   : 0.000
##LOWEVADJ   : 0.000
##BEAMX      : -1.000
##BEAMY      : -1.000
##CHARGE     : 0.00E+00
##QUANT_DATE : (null)
##QUANT_CHI  : 0.000
##FITTYPE    : 0
##MATRIXCORR : 0
##PEAKLAB    : 0.245000  C Ka  2
##PEAKLAB    : 0.523000  O Ka  2
##PEAKLAB    : 0.704000  Fe La1  2
##PEAKLAB    : 0.775000  Co La1  2
##PEAKLAB    : 1.487000  Al Ka  2
##PEAKLAB    : 2.289000  Mo La1  2
##PEAKLAB    : 6.396000  Fe Ka  2
##PEAKLAB    : 6.926000  Co Ka1  2
##PEAKLAB    : 9.237000  Ga Ka1  2
##PEAKLAB    : 17.422  Mo Ka1  2
##PEAKLAB    : 19.578  Mo Kb1  2
##PEAKLAB    : 1.254000  Mg Ka  2
##PEAKLAB    : 1.296000  Mg Kb  2
##PEAKLAB    : 1.553000  Al Kb  2
##PEAKLAB    : 1.740000  Si Ka  2
##PEAKLAB    : 1.829000  Si Kb  2
##PEAKLAB    : 0.091000  Si L2,3-M  2
##PEAKLAB    : 3.690000  Ca Ka  2
##PEAKLAB    : 4.012000  Ca Kb1  2
##PEAKLAB    : 0.302000  Ca Ll  2
##PEAKLAB    : 0.341000  Ca La1  2
##PEAKLAB    : 0.306000  Ca Ln  2
##PEAKLAB    : 0.344000  Ca Lb1  2
#SPECTRUM    :
0.0000, 31095.0,
0.0200, 44070.0,
0.0400, 11990.0,
0.0600,  1110.0,
0.0800,   160.0,
0.1000,   123.0,
0.1200,   137.0,
0.1400,   155.0,
0.1600,   166.0,
0.1800,   216.0,
0.2000,   262.0,
0.2200,   247.0,
0.2400,   304.0,
0.2600,   338.0,
0.2800,   324.0,
0.3000,   284.0,
0.3200,   352.0,
0.3400,   340.0,
0.3600,   404.0,
0.3800,   515.0,
0.4000,   611.0,
0.4200,   867.0,
0.4400,  1348.0,
0.4600,  3726.0,
0.4800, 13271.0,
0.5000, 32891.0,
0.5200, 44131.0,
0.5400, 29533.0,
0.5600,  9789.0,
0.5800,  1770.0,
0.6000,   412.0,
0.6200,   247.0,
0.6400,   261.0,
0.6600,   275.0,
0.6800,   284.0,
0.7000,   247.0,
0.7200,   224.0,
0.7400,   256.0,
0.7600,   213.0,
0.7800,   220.0,
0.8000,   222.0,
0.8200,   240.0,
0.8400,   245.0,
0.8600,   248.0,
0.8800,   252.0,
0.9000,   251.0,
0.9200,   263.0,
0.9400,   272.0,
0.9600,   269.0,
0.9800,   256.0,
1.0000,   265.0,
1.0200,   308.0,
1.0400,   319.0,
1.0600,   327.0,
1.0800,   351.0,
1.1000,   363.0,
1.1200,   377.0,
1.1400,   324.0,
1.1600,   290.0,
1.1800,   343.0,
1.2000,   370.0,
1.2200,   365.0,
1.2400,   388.0,
1.2600,   432.0,
1.2800,   440.0,
1.3000,   520.0,
1.3200,   517.0,
1.3400,   561.0,
1.3600,   563.0,
1.3800,   803.0,
1.4000,  2165.0,
1.4200,  7790.0,
1.4400, 22414.0,
1.4600, 42620.0,
1.4800, 54609.0,
1.5000, 45872.0,
1.5200, 26103.0,
1.5400, 10695.0,
1.5600,  3803.0,
1.5800,  1432.0,
1.6000,   689.0,
1.6200,   358.0,
1.6400,   221.0,
1.6600,   180.0,
1.6800,   160.0,
1.7000,   138.0,
1.7200,   141.0,
1.7400,   148.0,
1.7600,   151.0,
1.7800,   131.0,
1.8000,   129.0,
1.8200,   144.0,
1.8400,   139.0,
1.8600,   117.0,
1.8800,   114.0,
1.9000,   140.0,
1.9200,   119.0,
1.9400,   149.0,
1.9600,   155.0,
1.9800,   188.0,
2.0000,   178.0,
2.0200,   162.0,
2.0400,   169.0,
2.0600,   140.0,
2.0800,   127.0,
2.1000,   124.0,
2.1200,   119.0,
2.1400,   127.0,
2.1600,   104.0,
2.1800,   125.0,
2.2000,   110.0,
2.2200,   168.0,
2.2400,   230.0,
2.2600,   283.0,
2.2800,   370.0,
2.3000,   356.0,
2.3200,   278.0,
2.3400,   253.0,
2.3600,   234.0,
2.3800,   222.0,
2.4000,   238.0,
2.4200,   181.0,
2.4400,   176.0,
2.4600,   149.0,
2.4800,   145.0,
2.5000,   133.0,
2.5200,   118.0,
2.5400,   114.0,
2.5600,   112.0,
2.5800,   100.0,
2.6000,   103.0,
2.6200,   102.0,
2.6400,    99.0,
2.6600,    90.0,
2.6800,    85.0,
2.7000,   120.0,
2.7200,    95.0,
2.7400,   114.0,
2.7600,    84.0,
2.7800,    96.0,
2.8000,   107.0,
2.8200,    97.0,
2.8400,   106.0,
2.8600,   111.0,
2.8800,    91.0,
2.9000,   102.0,
2.9200,    97.0,
2.9400,   121.0,
2.9600,   131.0,
2.9800,   137.0,
3.0000,   114.0,
3.0200,   123.0,
3.0400,    91.0,
3.0600,   109.0,
3.0800,    79.0,
3.1000,    89.0,
3.1200,    95.0,
3.1400,    94.0,
3.1600,   103.0,
3.1800,   116.0,
3.2000,    84.0,
3.2200,    81.0,
3.2400,    78.0,
3.2600,    79.0,
3.2800,    79.0,
3.3000,    95.0,
3.3200,    83.0,
3.3400,    83.0,
3.3600,    82.0,
3.3800,    94.0,
3.4000,    88.0,
3.4200,    65.0,
3.4400,    79.0,
3.4600,    79.0,
3.4800,    93.0,
3.5000,    81.0,
3.5200,    69.0,
3.5400,    88.0,
3.5600,    78.0,
3.5800,    85.0,
3.6000,    92.0,
3.6200,    84.0,
3.6400,    80.0,
3.6600,    82.0,
3.6800,    98.0,
3.7000,    90.0,
3.7200,    89.0,
3.7400,    86.0,
3.7600,    63.0,
3.7800,    54.0,
3.8000,    78.0,
3.8200,    79.0,
3.8400,    53.0,
3.8600,    55.0,
3.8800,    64.0,
3.9000,    66.0,
3.9200,    78.0,
3.9400,    73.0,
3.9600,    77.0,
3.9800,    77.0,
4.0000,    75.0,
4.0200,    73.0,
4.0400,    53.0,
4.0600,    76.0,
4.0800,    70.0,
4.1000,    66.0,
4.1200,    73.0,
4.1400,    62.0,
4.1600,    64.0,
4.1800,    69.0,
4.2000,    57.0,
4.2200,    65.0,
4.2400,    63.0,
4.2600,    64.0,
4.2800,    58.0,
4.3000,    57.0,
4.3200,    69.0,
4.3400,    67.0,
4.3600,    61.0,
4.3800,    54.0,
4.4000,    61.0,
4.4200,    66.0,
4.4400,    73.0,
4.4600,    67.0,
4.4800,    72.0,
4.5000,    68.0,
4.5200,    68.0,
4.5400,    64.0,
4.5600,    79.0,
4.5800,    58.0,
4.6000,    63.0,
4.6200,    56.0,
4.6400,    45.0,
4.6600,    54.0,
4.6800,    52.0,
4.7000,    58.0,
4.7200,    59.0,
4.7400,    53.0,
4.7600,    60.0,
4.7800,    59.0,
4.8000,    50.0,
4.8200,    64.0,
4.8400,    68.0,
4.8600,    54.0,
4.8800,    62.0,
4.9000,    70.0,
4.9200,    59.0,
4.9400,    60.0,
4.9600,    66.0,
4.9800,    43.0,
5.0000,    47.0,
5.0200,    49.0,
5.0400,    62.0,
5.0600,    51.0,
5.0800,    48.0,
5.1000,    47.0,
5.1200,    38.0,
5.1400,    47.0,
5.1600,    50.0,
5.1800,    45.0,
5.2000,    49.0,
5.2200,    51.0,
5.2400,    41.0,
5.2600,    53.0,
5.2800,    51.0,
5.3000,    57.0,
5.3200,    58.0,
5.3400,    44.0,
5.3600,    37.0,
5.3800,    48.0,
5.4000,    45.0,
5.4200,    48.0,
5.4400,    53.0,
5.4600,    47.0,
5.4800,    48.0,
5.5000,    52.0,
5.5200,    43.0,
5.5400,    47.0,
5.5600,    52.0,
5.5800,    45.0,
5.6000,    40.0,
5.6200,    52.0,
5.6400,    44.0,
5.6600,    39.0,
5.6800,    37.0,
5.7000,    53.0,
5.7200,    31.0,
5.7400,    45.0,
5.7600,    41.0,
5.7800,    39.0,
5.8000,    37.0,
5.8200,    44.0,
5.8400,    43.0,
5.8600,    54.0,
5.8800,    48.0,
5.9000,    47.0,
5.9200,    47.0,
5.9400,    41.0,
5.9600,    45.0,
5.9800,    40.0,
6.0000,    49.0,
6.0200,    43.0,
6.0400,    39.0,
6.0600,    34.0,
6.0800,    35.0,
6.1000,    37.0,
6.1200,    46.0,
6.1400,    44.0,
6.1600,    32.0,
6.1800,    50.0,
6.2000,    48.0,
6.2200,    44.0,
6.2400,    33.0,
6.2600,    39.0,
6.2800,    53.0,
6.3000,    55.0,
6.3200,    82.0,
6.3400,   101.0,
6.3600,   109.0,
6.3800,   107.0,
6.4000,    98.0,
6.4200,   113.0,
6.4400,    94.0,
6.4600,    85.0,
6.4800,    68.0,
6.5000,    50.0,
6.5200,    45.0,
6.5400,    36.0,
6.5600,    45.0,
6.5800,    38.0,
6.6000,    45.0,
6.6200,    43.0,
6.6400,    33.0,
6.6600,    34.0,
6.6800,    36.0,
6.7000,    37.0,
6.7200,    34.0,
6.7400,    45.0,
6.7600,    42.0,
6.7800,    61.0,
6.8000,    57.0,
6.8200,    45.0,
6.8400,    66.0,
6.8600,    87.0,
6.8800,    97.0,
6.9000,    95.0,
6.9200,   102.0,
6.9400,   105.0,
6.9600,    93.0,
6.9800,    70.0,
7.0000,    71.0,
7.0200,    54.0,
7.0400,    58.0,
7.0600,    42.0,
7.0800,    33.0,
7.1000,    43.0,
7.1200,    44.0,
7.1400,    47.0,
7.1600,    42.0,
7.1800,    29.0,
7.2000,    36.0,
7.2200,    34.0,
7.2400,    32.0,
7.2600,    34.0,
7.2800,    24.0,
7.3000,    32.0,
7.3200,    31.0,
7.3400,    31.0,
7.3600,    31.0,
7.3800,    36.0,
7.4000,    34.0,
7.4200,    38.0,
7.4400,    32.0,
7.4600,    41.0,
7.4800,    48.0,
7.5000,    40.0,
7.5200,    42.0,
7.5400,    37.0,
7.5600,    40.0,
7.5800,    43.0,
7.6000,    34.0,
7.6200,    38.0,
7.6400,    33.0,
7.6600,    36.0,
7.6800,    29.0,
7.7000,    32.0,
7.7200,    23.0,
7.7400,    26.0,
7.7600,    41.0,
7.7800,    34.0,
7.8000,    36.0,
7.8200,    36.0,
7.8400,    41.0,
7.8600,    29.0,
7.8800,    25.0,
7.9000,    26.0,
7.9200,    34.0,
7.9400,    27.0,
7.9600,    28.0,
7.9800,    35.0,
8.0000,    51.0,
8.0200,    38.0,
8.0400,    39.0,
8.0600,    44.0,
8.0800,    35.0,
8.1000,    25.0,
8.1200,    33.0,
8.1400,    38.0,
8.1600,    32.0,
8.1800,    40.0,
8.2000,    26.0,
8.2200,    31.0,
8.2400,    33.0,
8.2600,    29.0,
8.2800,    35.0,
8.3000,    39.0,
8.3200,    29.0,
8.3400,    34.0,
8.3600,    37.0,
8.3800,    26.0,
8.4000,    27.0,
8.4200,    40.0,
8.4400,    23.0,
8.4600,    31.0,
8.4800,    35.0,
8.5000,    22.0,
8.5200,    29.0,
8.5400,    39.0,
8.5600,    25.0,
8.5800,    35.0,
8.6000,    34.0,
8.6200,    27.0,
8.6400,    30.0,
8.6600,    26.0,
8.6800,    31.0,
8.7000,    30.0,
8.7200,    29.0,
8.7400,    31.0,
8.7600,    28.0,
8.7800,    27.0,
8.8000,    32.0,
8.8200,    28.0,
8.8400,    28.0,
8.8600,    35.0,
8.8800,    24.0,
8.9000,    29.0,
8.9200,    32.0,
8.9400,    27.0,
8.9600,    29.0,
8.9800,    19.0,
9.0000,    28.0,
9.0200,    30.0,
9.0400,    29.0,
9.0600,    24.0,
9.0800,    28.0,
9.1000,    35.0,
9.1200,    22.0,
9.1400,    38.0,
9.1600,    39.0,
9.1800,    54.0,
9.2000,    61.0,
9.2200,    57.0,
9.2400,    60.0,
9.2600,    72.0,
9.2800,    41.0,
9.3000,    36.0,
9.3200,    47.0,
9.3400,    40.0,
9.3600,    37.0,
9.3800,    34.0,
9.4000,    31.0,
9.4200,    39.0,
9.4400,    27.0,
9.4600,    26.0,
9.4800,    27.0,
9.5000,    30.0,
9.5200,    27.0,
9.5400,    27.0,
9.5600,    31.0,
9.5800,    31.0,
9.6000,    40.0,
9.6200,    40.0,
9.6400,    34.0,
9.6600,    40.0,
9.6800,    30.0,
9.7000,    37.0,
9.7200,    41.0,
9.7400,    35.0,
9.7600,    41.0,
9.7800,    29.0,
9.8000,    20.0,
9.8200,    24.0,
9.8400,    33.0,
9.8600,    23.0,
9.8800,    26.0,
9.9000,    27.0,
9.9200,    25.0,
9.9400,    37.0,
9.9600,    18.0,
9.9800,    27.0,
10.0000,    22.0,
10.0200,    25.0,
10.0400,    28.0,
10.0600,    35.0,
10.0800,    21.0,
10.1000,    31.0,
10.1200,    30.0,
10.1400,    24.0,
10.1600,    34.0,
10.1800,    33.0,
10.2000,    37.0,
10.2200,    23.0,
10.2400,    36.0,
10.2600,    27.0,
10.2800,    26.0,
10.3000,    25.0,
10.3200,    21.0,
10.3400,    19.0,
10.3600,    18.0,
10.3800,    27.0,
10.4000,    28.0,
10.4200,    33.0,
10.4400,    30.0,
10.4600,    32.0,
10.4800,    44.0,
10.5000,    36.0,
10.5200,    36.0,
10.5400,    39.0,
10.5600,    41.0,
10.5800,    37.0,
10.6000,    43.0,
10.6200,    40.0,
10.6400,    32.0,
10.6600,    39.0,
10.6800,    24.0,
10.7000,    31.0,
10.7200,    24.0,
10.7400,    17.0,
10.7600,    14.0,
10.7800,    25.0,
10.8000,    14.0,
10.8200,    23.0,
10.8400,    21.0,
10.8600,    29.0,
10.8800,    21.0,
10.9000,    28.0,
10.9200,    31.0,
10.9400,    25.0,
10.9600,    24.0,
10.9800,    23.0,
11.0000,    17.0,
11.0200,    26.0,
11.0400,    22.0,
11.0600,    25.0,
11.0800,    24.0,
11.1000,    30.0,
11.1200,    25.0,
11.1400,    25.0,
11.1600,    28.0,
11.1800,    21.0,
11.2000,    27.0,
11.2200,    30.0,
11.2400,    24.0,
11.2600,    20.0,
11.2800,    32.0,
11.3000,    22.0,
11.3200,    30.0,
11.3400,    25.0,
11.3600,    22.0,
11.3800,    34.0,
11.4000,    32.0,
11.4200,    38.0,
11.4400,    38.0,
11.4600,    34.0,
11.4800,    28.0,
11.5000,    36.0,
11.5200,    31.0,
11.5400,    27.0,
11.5600,    27.0,
11.5800,    27.0,
11.6000,    31.0,
11.6200,    25.0,
11.6400,    23.0,
11.6600,    19.0,
11.6800,    34.0,
11.7000,    18.0,
11.7200,    17.0,
11.7400,    20.0,
11.7600,    25.0,
11.7800,    20.0,
11.8000,    17.0,
11.8200,    15.0,
11.8400,    25.0,
11.8600,    20.0,
11.8800,    25.0,
11.9000,    18.0,
11.9200,    24.0,
11.9400,    16.0,
11.9600,    14.0,
11.9800,    17.0,
12.0000,    15.0,
12.0200,    16.0,
12.0400,    21.0,
12.0600,    23.0,
12.0800,    23.0,
12.1000,    19.0,
12.1200,    17.0,
12.1400,    18.0,
12.1600,    13.0,
12.1800,    17.0,
12.2000,    17.0,
12.2200,    25.0,
12.2400,    26.0,
12.2600,    14.0,
12.2800,    21.0,
12.3000,    28.0,
12.3200,    21.0,
12.3400,    22.0,
12.3600,    19.0,
12.3800,    19.0,
12.4000,    20.0,
12.4200,    18.0,
12.4400,    23.0,
12.4600,    25.0,
12.4800,    15.0,
12.5000,    27.0,
12.5200,    19.0,
12.5400,    30.0,
12.5600,    37.0,
12.5800,    29.0,
12.6000,    38.0,
12.6200,    41.0,
12.6400,    37.0,
12.6600,    27.0,
12.6800,    20.0,
12.7000,    21.0,
12.7200,    26.0,
12.7400,    19.0,
12.7600,    36.0,
12.7800,    20.0,
12.8000,    20.0,
12.8200,    24.0,
12.8400,    22.0,
12.8600,    24.0,
12.8800,    23.0,
12.9000,    21.0,
12.9200,    14.0,
12.9400,    12.0,
12.9600,    16.0,
12.9800,    10.0,
13.0000,    23.0,
13.0200,    21.0,
13.0400,    17.0,
13.0600,    17.0,
13.0800,    20.0,
13.1000,    23.0,
13.1200,    17.0,
13.1400,    21.0,
13.1600,    16.0,
13.1800,     9.0,
13.2000,    16.0,
13.2200,    17.0,
13.2400,    21.0,
13.2600,    18.0,
13.2800,    21.0,
13.3000,    15.0,
13.3200,    14.0,
13.3400,    19.0,
13.3600,    22.0,
13.3800,    20.0,
13.4000,    19.0,
13.4200,    18.0,
13.4400,    14.0,
13.4600,    22.0,
13.4800,    23.0,
13.5000,    12.0,
13.5200,    11.0,
13.5400,    21.0,
13.5600,    23.0,
13.5800,    18.0,
13.6000,    10.0,
13.6200,    13.0,
13.6400,    12.0,
13.6600,    15.0,
13.6800,    21.0,
13.7000,    11.0,
13.7200,    23.0,
13.7400,    14.0,
13.7600,    15.0,
13.7800,    13.0,
13.8000,    18.0,
13.8200,    10.0,
13.8400,    17.0,
13.8600,    13.0,
13.8800,    22.0,
13.9000,    12.0,
13.9200,    10.0,
13.9400,    18.0,
13.9600,    19.0,
13.9800,    18.0,
14.0000,    13.0,
14.0200,    20.0,
14.0400,    13.0,
14.0600,    16.0,
14.0800,    12.0,
14.1000,    16.0,
14.1200,    15.0,
14.1400,    18.0,
14.1600,    22.0,
14.1800,    11.0,
14.2000,    11.0,
14.2200,    19.0,
14.2400,    21.0,
14.2600,    17.0,
14.2800,     5.0,
14.3000,    18.0,
14.3200,    23.0,
14.3400,    11.0,
14.3600,    11.0,
14.3800,    26.0,
14.4000,    20.0,
14.4200,    15.0,
14.4400,    14.0,
14.4600,    14.0,
14.4800,    12.0,
14.5000,    14.0,
14.5200,     9.0,
14.5400,    13.0,
14.5600,    15.0,
14.5800,     6.0,
14.6000,    12.0,
14.6200,    16.0,
14.6400,    14.0,
14.6600,    12.0,
14.6800,    15.0,
14.7000,    19.0,
14.7200,    15.0,
14.7400,    11.0,
14.7600,    11.0,
14.7800,    11.0,
14.8000,    17.0,
14.8200,    14.0,
14.8400,    15.0,
14.8600,    15.0,
14.8800,    10.0,
14.9000,    14.0,
14.9200,    10.0,
14.9400,     8.0,
14.9600,    14.0,
14.9800,    13.0,
15.0000,    17.0,
15.0200,    10.0,
15.0400,    10.0,
15.0600,    17.0,
15.0800,    20.0,
15.1000,    14.0,
15.1200,     8.0,
15.1400,     5.0,
15.1600,    14.0,
15.1800,    15.0,
15.2000,    13.0,
15.2200,    10.0,
15.2400,     7.0,
15.2600,     9.0,
15.2800,    16.0,
15.3000,    10.0,
15.3200,    17.0,
15.3400,     9.0,
15.3600,    13.0,
15.3800,    12.0,
15.4000,     9.0,
15.4200,    15.0,
15.4400,    12.0,
15.4600,    12.0,
15.4800,     5.0,
15.5000,    10.0,
15.5200,    11.0,
15.5400,     9.0,
15.5600,     9.0,
15.5800,    13.0,
15.6000,     8.0,
15.6200,    16.0,
15.6400,     8.0,
15.6600,    14.0,
15.6800,     8.0,
15.7000,    13.0,
15.7200,     9.0,
15.7400,    18.0,
15.7600,     9.0,
15.7800,    11.0,
15.8000,     3.0,
15.8200,    10.0,
15.8400,     6.0,
15.8600,     4.0,
15.8800,    13.0,
15.9000,    15.0,
15.9200,     7.0,
15.9400,     5.0,
15.9600,    15.0,
15.9800,    12.0,
16.0000,    10.0,
16.0200,     9.0,
16.0400,    13.0,
16.0600,     6.0,
16.0800,     7.0,
16.1000,    12.0,
16.1200,     6.0,
16.1400,    11.0,
16.1600,    16.0,
16.1800,     7.0,
16.2000,     5.0,
16.2200,     4.0,
16.2400,     9.0,
16.2600,     9.0,
16.2800,    10.0,
16.3000,     9.0,
16.3200,    12.0,
16.3400,    13.0,
16.3600,    11.0,
16.3800,     7.0,
16.4000,    13.0,
16.4200,    12.0,
16.4400,    12.0,
16.4600,     6.0,
16.4800,     9.0,
16.5000,    15.0,
16.5200,     9.0,
16.5400,    15.0,
16.5600,    11.0,
16.5800,     8.0,
16.6000,     8.0,
16.6200,    10.0,
16.6400,     7.0,
16.6600,     8.0,
16.6800,    16.0,
16.7000,    12.0,
16.7200,    13.0,
16.7400,    10.0,
16.7600,    12.0,
16.7800,     5.0,
16.8000,    14.0,
16.8200,    13.0,
16.8400,     3.0,
16.8600,    14.0,
16.8800,     9.0,
16.9000,    10.0,
16.9200,    11.0,
16.9400,    14.0,
16.9600,     9.0,
16.9800,    10.0,
17.0000,    13.0,
17.0200,     7.0,
17.0400,    11.0,
17.0600,     9.0,
17.0800,    14.0,
17.1000,    21.0,
17.1200,    19.0,
17.1400,    22.0,
17.1600,    37.0,
17.1800,    33.0,
17.2000,    54.0,
17.2200,    59.0,
17.2400,    97.0,
17.2600,   119.0,
17.2800,   137.0,
17.3000,   193.0,
17.3200,   237.0,
17.3400,   257.0,
17.3600,   260.0,
17.3800,   306.0,
17.4000,   334.0,
17.4200,   338.0,
17.4400,   309.0,
17.4600,   285.0,
17.4800,   261.0,
17.5000,   208.0,
17.5200,   198.0,
17.5400,   186.0,
17.5600,   122.0,
17.5800,   117.0,
17.6000,    66.0,
17.6200,    54.0,
17.6400,    34.0,
17.6600,    35.0,
17.6800,    17.0,
17.7000,    10.0,
17.7200,    10.0,
17.7400,     9.0,
17.7600,    11.0,
17.7800,    12.0,
17.8000,    10.0,
17.8200,    13.0,
17.8400,    15.0,
17.8600,    10.0,
17.8800,     9.0,
17.9000,    14.0,
17.9200,    12.0,
17.9400,    16.0,
17.9600,     7.0,
17.9800,     4.0,
18.0000,     8.0,
18.0200,    12.0,
18.0400,     7.0,
18.0600,     7.0,
18.0800,    11.0,
18.1000,     5.0,
18.1200,     7.0,
18.1400,     5.0,
18.1600,     4.0,
18.1800,     7.0,
18.2000,    14.0,
18.2200,     9.0,
18.2400,     5.0,
18.2600,     8.0,
18.2800,     7.0,
18.3000,     3.0,
18.3200,     8.0,
18.3400,     8.0,
18.3600,     6.0,
18.3800,     7.0,
18.4000,     8.0,
18.4200,    10.0,
18.4400,     6.0,
18.4600,     8.0,
18.4800,     7.0,
18.5000,     4.0,
18.5200,    11.0,
18.5400,     9.0,
18.5600,     6.0,
18.5800,     9.0,
18.6000,     7.0,
18.6200,     6.0,
18.6400,     5.0,
18.6600,    10.0,
18.6800,     5.0,
18.7000,     5.0,
18.7200,     6.0,
18.7400,     7.0,
18.7600,     7.0,
18.7800,     5.0,
18.8000,     9.0,
18.8200,     6.0,
18.8400,     8.0,
18.8600,     7.0,
18.8800,    10.0,
18.9000,    10.0,
18.9200,    11.0,
18.9400,    10.0,
18.9600,     5.0,
18.9800,     6.0,
19.0000,    12.0,
19.0200,     8.0,
19.0400,     5.0,
19.0600,     7.0,
19.0800,     7.0,
19.1000,     8.0,
19.1200,     6.0,
19.1400,     8.0,
19.1600,    11.0,
19.1800,     5.0,
19.2000,    15.0,
19.2200,     6.0,
19.2400,     1.0,
19.2600,     4.0,
19.2800,     8.0,
19.3000,     3.0,
19.3200,     6.0,
19.3400,     7.0,
19.3600,    17.0,
19.3800,    13.0,
19.4000,    20.0,
19.4200,    15.0,
19.4400,    30.0,
19.4600,    32.0,
19.4800,    32.0,
19.5000,    43.0,
19.5200,    37.0,
19.5400,    54.0,
19.5600,    67.0,
19.5800,    54.0,
19.6000,    57.0,
19.6200,    45.0,
19.6400,    33.0,
19.6600,    40.0,
19.6800,    30.0,
19.7000,    22.0,
19.7200,    24.0,
19.7400,    18.0,
19.7600,    18.0,
19.7800,    14.0,
19.8000,     8.0,
19.8200,    14.0,
19.8400,    11.0,
19.8600,    16.0,
19.8800,    14.0,
19.9000,    19.0,
19.9200,    10.0,
19.9400,    16.0,
19.9600,     7.0,
19.9800,    16.0,
20.0000,     7.0,
20.0200,    16.0,
20.0400,     9.0,
20.0600,     6.0,
20.0800,     3.0,
20.1000,     3.0,
20.1200,     5.0,
20.1400,     1.0,
20.1600,     4.0,
20.1800,     3.0,
20.2000,     4.0,
20.2200,     2.0,
20.2400,     1.0,
20.2600,     5.0,
20.2800,     1.0,
20.3000,     4.0,
20.3200,     2.0,
20.3400,     6.0,
20.3600,     3.0,
20.3800,     1.0,
20.4000,     3.0,
20.4200,     6.0,
20.4400,     3.0,
20.4600,     7.0,
20.4700,     4.0,
#ENDOFDATA   :