File: Data/GB2(1) (copy).emsa
#FORMAT      : EMSA/MAS Spectral Data File
#VERSION     : 1.0
#TITLE       : GB2(1)
#DATE        : 25-APR-2018
#TIME        : 12:39:44
#OWNER       :
#NPOINTS     : 2048
#NCOLUMNS    : 1
#XUNITS      : keV
#YUNITS      : Intensity
#DATATYPE    : XY
#XPERCHAN    : 0.01
#OFFSET      : 0.000000000
#CHOFFSET    : 0.000000
#SIGNALTYPE  : EDS
#XLABEL      : X-Ray Energy
#YLABEL      : X-Ray Intensity
#BEAMKV   -kV: 200.0
#EMISSION -uA: 0.0000
#PROBECUR -nA: 0.3000
#BEAMDIAM -nm: 0.0
#MAGCAM      : 3000000.0
#OPERMODE    : IMAG
#XTILTSTGE-dg: 5.000
#YTILTSTGE-dg: 0.000
#XPOSITION   : -150.263
#YPOSITION   : -234.725
#ZPOSITION   : -8.055
#ELEVANGLE-dg: 19.12
#AZIMANGLE-dg: 90.00
#SOLIDANGL-sR: 0.7561
#LIVETIME  -s: 180.000
#REALTIME  -s: 195.247
#TPYWIND  -cm: 1.00E-06
#TAUWIND  -cm: 2.00E-06
#TDEADLYR -cm: 1.00E-06
#EDSDET      : SiUTW
#COMMENT     : The following parameters are defined by Thermo Fisher Scientific
##INSTRUMENT : NSS Microanalysis System
##DETNAME    : SDD Detector
##CONTAM     : 0.00E+00
##CONTAMTYPE : NONE
##WORKDIST   : 3.80
##STAGEROT   : 0.000
##SLIDEPOS   : 11.500
##CRYSTMATL  : Si-Drift
##CRYSTAREA  : 100.000
##CRYSTTHICK : 0.450
##WINTYPE    : PARYLENE
##CONTMATL   : SDD_LELMT
##WINDCOAT   : ALUMINUM
##WINDTHICK  : 0.020
##DEADTIME   : 15.247
##TIMECNSTNT : 6400
##EDSBOARDREV: 2
##ZEROWIDTH  : 40.000
##DETECTS    : 1174301
##CONVERTS   : 1058890
##STORES     : 1001061
##ESCPKSREM  : 1
##ZEROPKSREM : 0
##SUMPKSREM  : 1
##ZEROCUTOFF : 0.000
##DETSUBTYPE : 2
##EXPONENT   : 0.000
##LOWEVADJ   : 0.000
##BEAMX      : -1.000
##BEAMY      : -1.000
##CHARGE     : 0.00E+00
##QUANT_DATE : (null)
##QUANT_CHI  : 0.000
##FITTYPE    : 0
##MATRIXCORR : 0
##PEAKLAB    : 0.245000  C Ka  2
##PEAKLAB    : 0.523000  O Ka  2
##PEAKLAB    : 0.704000  Fe La1  2
##PEAKLAB    : 0.775000  Co La1  2
##PEAKLAB    : 1.266000  Mg Ka  2
##PEAKLAB    : 1.487000  Al Ka  2
##PEAKLAB    : 2.288000  Mo La1  2
##PEAKLAB    : 3.684000  Ca Ka  2
##PEAKLAB    : 6.384000  Fe Ka  2
##PEAKLAB    : 6.909000  Co Ka1  2
##PEAKLAB    : 9.251000  Ga Ka1  2
##PEAKLAB    : 17.426  Mo Ka1  2
##PEAKLAB    : 19.577  Mo Kb1  2
##PEAKLAB    : 1.296000  Mg Kb  2
##PEAKLAB    : 1.553000  Al Kb  2
##PEAKLAB    : 1.740000  Si Ka  2
##PEAKLAB    : 1.829000  Si Kb  2
##PEAKLAB    : 0.091000  Si L2,3-M  2
##PEAKLAB    : 4.012000  Ca Kb1  2
##PEAKLAB    : 0.302000  Ca Ll  2
##PEAKLAB    : 0.341000  Ca La1  2
##PEAKLAB    : 0.306000  Ca Ln  2
##PEAKLAB    : 0.344000  Ca Lb1  2
#SPECTRUM    :
0.0000, 31678.0, # Energy (keV), Intensity (counts)
0.0100, 57347.0,
0.0300, 26781.0,
0.0500,  4102.0,
0.0700,   304.0,
0.0900,   119.0,
0.1100,   127.0,
0.1300,   162.0,
0.1500,   158.0,
0.1700,   161.0,
0.1900,   227.0,
0.2100,   257.0,
0.2300,   304.0,
0.2500,   333.0,
0.2700,   348.0,
0.2900,   318.0,
0.3100,   319.0,
0.3300,   367.0,
0.3500,   431.0,
0.3700,   423.0,
0.3900,   515.0,
0.4100,   662.0,
0.4300,  1010.0,
0.4500,  2054.0,
0.4700,  7019.0,
0.4900, 21954.0,
0.5100, 41516.0,
0.5300, 38981.0,
0.5500, 18324.0,
0.5700,  4396.0,
0.5900,   682.0,
0.6100,   240.0,
0.6300,   256.0,
0.6500,   257.0,
0.6700,   247.0,
0.6900,   234.0,
0.7100,   222.0,
0.7300,   221.0,
0.7500,   226.0,
0.7700,   232.0,
0.7900,   212.0,
0.8100,   259.0,
0.8300,   242.0,
0.8500,   245.0,
0.8700,   266.0,
0.8900,   242.0,
0.9100,   247.0,
0.9300,   284.0,
0.9500,   281.0,
0.9700,   280.0,
0.9900,   277.0,
1.0100,   273.0,
1.0300,   327.0,
1.0500,   314.0,
1.0700,   311.0,
1.0900,   316.0,
1.1100,   370.0,
1.1300,   339.0,
1.1500,   376.0,
1.1700,   300.0,
1.1900,   362.0,
1.2100,   358.0,
1.2300,   441.0,
1.2500,   501.0,
1.2700,   534.0,
1.2900,   508.0,
1.3100,   555.0,
1.3300,   522.0,
1.3500,   586.0,
1.3700,   668.0,
1.3900,  1233.0,
1.4100,  4090.0,
1.4300, 13720.0,
1.4500, 32181.0,
1.4700, 50331.0,
1.4900, 52331.0,
1.5100, 36325.0,
1.5300, 17193.0,
1.5500,  6286.0,
1.5700,  2223.0,
1.5900,   935.0,
1.6100,   464.0,
1.6300,   259.0,
1.6500,   195.0,
1.6700,   173.0,
1.6900,   169.0,
1.7100,   165.0,
1.7300,   185.0,
1.7500,   162.0,
1.7700,   153.0,
1.7900,   148.0,
1.8100,   141.0,
1.8300,   133.0,
1.8500,   135.0,
1.8700,   111.0,
1.8900,   129.0,
1.9100,   103.0,
1.9300,   123.0,
1.9500,   136.0,
1.9700,   168.0,
1.9900,   156.0,
2.0100,   164.0,
2.0300,   165.0,
2.0500,   164.0,
2.0700,   146.0,
2.0900,   138.0,
2.1100,   122.0,
2.1300,   123.0,
2.1500,   121.0,
2.1700,   110.0,
2.1900,   131.0,
2.2100,   157.0,
2.2300,   196.0,
2.2500,   267.0,
2.2700,   340.0,
2.2900,   383.0,
2.3100,   316.0,
2.3300,   283.0,
2.3500,   216.0,
2.3700,   226.0,
2.3900,   219.0,
2.4100,   215.0,
2.4300,   191.0,
2.4500,   161.0,
2.4700,   128.0,
2.4900,   114.0,
2.5100,   131.0,
2.5300,   121.0,
2.5500,    93.0,
2.5700,   109.0,
2.5900,    86.0,
2.6100,   117.0,
2.6300,   108.0,
2.6500,    90.0,
2.6700,    95.0,
2.6900,   103.0,
2.7100,   107.0,
2.7300,   105.0,
2.7500,   103.0,
2.7700,    92.0,
2.7900,   113.0,
2.8100,   106.0,
2.8300,   101.0,
2.8500,    87.0,
2.8700,   113.0,
2.8900,   100.0,
2.9100,   114.0,
2.9300,   128.0,
2.9500,   128.0,
2.9700,   148.0,
2.9900,   105.0,
3.0100,   127.0,
3.0300,   107.0,
3.0500,    64.0,
3.0700,    96.0,
3.0900,    95.0,
3.1100,    92.0,
3.1300,    96.0,
3.1500,    94.0,
3.1700,    72.0,
3.1900,    75.0,
3.2100,    71.0,
3.2300,    93.0,
3.2500,    74.0,
3.2700,    83.0,
3.2900,    95.0,
3.3100,    78.0,
3.3300,    82.0,
3.3500,    80.0,
3.3700,    94.0,
3.3900,    92.0,
3.4100,    80.0,
3.4300,    78.0,
3.4500,    72.0,
3.4700,    66.0,
3.4900,    85.0,
3.5100,    86.0,
3.5300,    58.0,
3.5500,    68.0,
3.5700,    69.0,
3.5900,    99.0,
3.6100,   100.0,
3.6300,   124.0,
3.6500,   175.0,
3.6700,   174.0,
3.6900,   170.0,
3.7100,   160.0,
3.7300,   141.0,
3.7500,   118.0,
3.7700,    94.0,
3.7900,    80.0,
3.8100,    68.0,
3.8300,    64.0,
3.8500,    68.0,
3.8700,    65.0,
3.8900,    81.0,
3.9100,    74.0,
3.9300,    71.0,
3.9500,    71.0,
3.9700,    90.0,
3.9900,    80.0,
4.0100,    62.0,
4.0300,    75.0,
4.0500,    77.0,
4.0700,    49.0,
4.0900,    53.0,
4.1100,    68.0,
4.1300,    53.0,
4.1500,    60.0,
4.1700,    62.0,
4.1900,    59.0,
4.2100,    55.0,
4.2300,    70.0,
4.2500,    61.0,
4.2700,    64.0,
4.2900,    49.0,
4.3100,    74.0,
4.3300,    62.0,
4.3500,    58.0,
4.3700,    61.0,
4.3900,    68.0,
4.4100,    75.0,
4.4300,    55.0,
4.4500,    65.0,
4.4700,    54.0,
4.4900,    79.0,
4.5100,    76.0,
4.5300,    59.0,
4.5500,    78.0,
4.5700,    66.0,
4.5900,    55.0,
4.6100,    67.0,
4.6300,    77.0,
4.6500,    71.0,
4.6700,    66.0,
4.6900,    62.0,
4.7100,    57.0,
4.7300,    43.0,
4.7500,    54.0,
4.7700,    66.0,
4.7900,    50.0,
4.8100,    68.0,
4.8300,    53.0,
4.8500,    56.0,
4.8700,    62.0,
4.8900,    44.0,
4.9100,    55.0,
4.9300,    62.0,
4.9500,    61.0,
4.9700,    48.0,
4.9900,    71.0,
5.0100,    51.0,
5.0300,    45.0,
5.0500,    45.0,
5.0700,    52.0,
5.0900,    50.0,
5.1100,    54.0,
5.1300,    58.0,
5.1500,    54.0,
5.1700,    48.0,
5.1900,    64.0,
5.2100,    55.0,
5.2300,    42.0,
5.2500,    50.0,
5.2700,    44.0,
5.2900,    59.0,
5.3100,    51.0,
5.3300,    53.0,
5.3500,    47.0,
5.3700,    47.0,
5.3900,    67.0,
5.4100,    51.0,
5.4300,    47.0,
5.4500,    55.0,
5.4700,    43.0,
5.4900,    41.0,
5.5100,    43.0,
5.5300,    46.0,
5.5500,    52.0,
5.5700,    62.0,
5.5900,    47.0,
5.6100,    56.0,
5.6300,    37.0,
5.6500,    43.0,
5.6700,    39.0,
5.6900,    54.0,
5.7100,    47.0,
5.7300,    48.0,
5.7500,    47.0,
5.7700,    37.0,
5.7900,    41.0,
5.8100,    42.0,
5.8300,    47.0,
5.8500,    45.0,
5.8700,    37.0,
5.8900,    39.0,
5.9100,    36.0,
5.9300,    41.0,
5.9500,    51.0,
5.9700,    52.0,
5.9900,    43.0,
6.0100,    43.0,
6.0300,    43.0,
6.0500,    48.0,
6.0700,    42.0,
6.0900,    47.0,
6.1100,    41.0,
6.1300,    46.0,
6.1500,    37.0,
6.1700,    56.0,
6.1900,    45.0,
6.2100,    29.0,
6.2300,    44.0,
6.2500,    49.0,
6.2700,    55.0,
6.2900,    49.0,
6.3100,    77.0,
6.3300,    98.0,
6.3500,    95.0,
6.3700,   111.0,
6.3900,   111.0,
6.4100,    87.0,
6.4300,    79.0,
6.4500,    86.0,
6.4700,    74.0,
6.4900,    48.0,
6.5100,    38.0,
6.5300,    50.0,
6.5500,    41.0,
6.5700,    43.0,
6.5900,    47.0,
6.6100,    29.0,
6.6300,    37.0,
6.6500,    51.0,
6.6700,    46.0,
6.6900,    41.0,
6.7100,    41.0,
6.7300,    50.0,
6.7500,    43.0,
6.7700,    45.0,
6.7900,    46.0,
6.8100,    58.0,
6.8300,    67.0,
6.8500,    87.0,
6.8700,    87.0,
6.8900,   143.0,
6.9100,   108.0,
6.9300,    94.0,
6.9500,   103.0,
6.9700,    70.0,
6.9900,    63.0,
7.0100,    75.0,
7.0300,    56.0,
7.0500,    54.0,
7.0700,    39.0,
7.0900,    50.0,
7.1100,    42.0,
7.1300,    32.0,
7.1500,    38.0,
7.1700,    29.0,
7.1900,    35.0,
7.2100,    38.0,
7.2300,    30.0,
7.2500,    45.0,
7.2700,    38.0,
7.2900,    39.0,
7.3100,    29.0,
7.3300,    33.0,
7.3500,    41.0,
7.3700,    42.0,
7.3900,    40.0,
7.4100,    29.0,
7.4300,    35.0,
7.4500,    33.0,
7.4700,    36.0,
7.4900,    25.0,
7.5100,    36.0,
7.5300,    39.0,
7.5500,    34.0,
7.5700,    31.0,
7.5900,    31.0,
7.6100,    31.0,
7.6300,    43.0,
7.6500,    28.0,
7.6700,    33.0,
7.6900,    35.0,
7.7100,    31.0,
7.7300,    45.0,
7.7500,    32.0,
7.7700,    36.0,
7.7900,    33.0,
7.8100,    25.0,
7.8300,    23.0,
7.8500,    39.0,
7.8700,    29.0,
7.8900,    31.0,
7.9100,    34.0,
7.9300,    33.0,
7.9500,    40.0,
7.9700,    33.0,
7.9900,    55.0,
8.0100,    46.0,
8.0300,    35.0,
8.0500,    26.0,
8.0700,    35.0,
8.0900,    42.0,
8.1100,    36.0,
8.1300,    33.0,
8.1500,    36.0,
8.1700,    35.0,
8.1900,    31.0,
8.2100,    27.0,
8.2300,    32.0,
8.2500,    32.0,
8.2700,    34.0,
8.2900,    34.0,
8.3100,    37.0,
8.3300,    34.0,
8.3500,    32.0,
8.3700,    30.0,
8.3900,    37.0,
8.4100,    34.0,
8.4300,    31.0,
8.4500,    29.0,
8.4700,    31.0,
8.4900,    28.0,
8.5100,    30.0,
8.5300,    24.0,
8.5500,    36.0,
8.5700,    39.0,
8.5900,    33.0,
8.6100,    32.0,
8.6300,    36.0,
8.6500,    34.0,
8.6700,    27.0,
8.6900,    32.0,
8.7100,    29.0,
8.7300,    31.0,
8.7500,    27.0,
8.7700,    20.0,
8.7900,    24.0,
8.8100,    22.0,
8.8300,    25.0,
8.8500,    33.0,
8.8700,    27.0,
8.8900,    35.0,
8.9100,    32.0,
8.9300,    31.0,
8.9500,    31.0,
8.9700,    25.0,
8.9900,    23.0,
9.0100,    27.0,
9.0300,    41.0,
9.0500,    28.0,
9.0700,    32.0,
9.0900,    28.0,
9.1100,    34.0,
9.1300,    30.0,
9.1500,    45.0,
9.1700,    35.0,
9.1900,    50.0,
9.2100,    48.0,
9.2300,    51.0,
9.2500,    49.0,
9.2700,    57.0,
9.2900,    47.0,
9.3100,    41.0,
9.3300,    36.0,
9.3500,    34.0,
9.3700,    34.0,
9.3900,    29.0,
9.4100,    26.0,
9.4300,    21.0,
9.4500,    28.0,
9.4700,    28.0,
9.4900,    24.0,
9.5100,    34.0,
9.5300,    31.0,
9.5500,    34.0,
9.5700,    37.0,
9.5900,    35.0,
9.6100,    29.0,
9.6300,    28.0,
9.6500,    36.0,
9.6700,    43.0,
9.6900,    41.0,
9.7100,    40.0,
9.7300,    36.0,
9.7500,    47.0,
9.7700,    41.0,
9.7900,    38.0,
9.8100,    34.0,
9.8300,    24.0,
9.8500,    19.0,
9.8700,    27.0,
9.8900,    28.0,
9.9100,    21.0,
9.9300,    15.0,
9.9500,    22.0,
9.9700,    39.0,
9.9900,    24.0,
10.0100,    22.0,
10.0300,    34.0,
10.0500,    25.0,
10.0700,    32.0,
10.0900,    31.0,
10.1100,    23.0,
10.1300,    26.0,
10.1500,    24.0,
10.1700,    23.0,
10.1900,    29.0,
10.2100,    31.0,
10.2300,    25.0,
10.2500,    29.0,
10.2700,    25.0,
10.2900,    28.0,
10.3100,    35.0,
10.3300,    18.0,
10.3500,    19.0,
10.3700,    25.0,
10.3900,    29.0,
10.4100,    28.0,
10.4300,    23.0,
10.4500,    34.0,
10.4700,    38.0,
10.4900,    30.0,
10.5100,    40.0,
10.5300,    31.0,
10.5500,    36.0,
10.5700,    42.0,
10.5900,    39.0,
10.6100,    31.0,
10.6300,    30.0,
10.6500,    31.0,
10.6700,    23.0,
10.6900,    27.0,
10.7100,    30.0,
10.7300,    26.0,
10.7500,    16.0,
10.7700,    26.0,
10.7900,    24.0,
10.8100,    26.0,
10.8300,    28.0,
10.8500,    23.0,
10.8700,    29.0,
10.8900,    29.0,
10.9100,    24.0,
10.9300,    29.0,
10.9500,    21.0,
10.9700,    20.0,
10.9900,    21.0,
11.0100,    20.0,
11.0300,    23.0,
11.0500,    23.0,
11.0700,    27.0,
11.0900,    24.0,
11.1100,    22.0,
11.1300,    22.0,
11.1500,    31.0,
11.1700,    30.0,
11.1900,    28.0,
11.2100,    26.0,
11.2300,    27.0,
11.2500,    23.0,
11.2700,    21.0,
11.2900,    20.0,
11.3100,    38.0,
11.3300,    26.0,
11.3500,    18.0,
11.3700,    27.0,
11.3900,    30.0,
11.4100,    32.0,
11.4300,    26.0,
11.4500,    17.0,
11.4700,    28.0,
11.4900,    29.0,
11.5100,    26.0,
11.5300,    21.0,
11.5500,    24.0,
11.5700,    38.0,
11.5900,    29.0,
11.6100,    19.0,
11.6300,    22.0,
11.6500,    21.0,
11.6700,    26.0,
11.6900,    28.0,
11.7100,    22.0,
11.7300,    29.0,
11.7500,    18.0,
11.7700,    16.0,
11.7900,    17.0,
11.8100,    30.0,
11.8300,    21.0,
11.8500,    26.0,
11.8700,    16.0,
11.8900,    24.0,
11.9100,    20.0,
11.9300,    17.0,
11.9500,    17.0,
11.9700,    21.0,
11.9900,    29.0,
12.0100,    15.0,
12.0300,    16.0,
12.0500,    14.0,
12.0700,    15.0,
12.0900,    17.0,
12.1100,    19.0,
12.1300,    20.0,
12.1500,    16.0,
12.1700,    20.0,
12.1900,    17.0,
12.2100,    15.0,
12.2300,    13.0,
12.2500,    26.0,
12.2700,    15.0,
12.2900,    19.0,
12.3100,    18.0,
12.3300,    17.0,
12.3500,    16.0,
12.3700,    12.0,
12.3900,    28.0,
12.4100,    13.0,
12.4300,    25.0,
12.4500,    22.0,
12.4700,    27.0,
12.4900,    30.0,
12.5100,    25.0,
12.5300,    33.0,
12.5500,    22.0,
12.5700,    31.0,
12.5900,    27.0,
12.6100,    41.0,
12.6300,    31.0,
12.6500,    29.0,
12.6700,    31.0,
12.6900,    32.0,
12.7100,    32.0,
12.7300,    28.0,
12.7500,    25.0,
12.7700,    33.0,
12.7900,    10.0,
12.8100,    18.0,
12.8300,    14.0,
12.8500,    29.0,
12.8700,    20.0,
12.8900,    23.0,
12.9100,    18.0,
12.9300,    11.0,
12.9500,    16.0,
12.9700,    17.0,
12.9900,    23.0,
13.0100,     9.0,
13.0300,    19.0,
13.0500,    17.0,
13.0700,    14.0,
13.0900,    17.0,
13.1100,    24.0,
13.1300,    15.0,
13.1500,     7.0,
13.1700,    16.0,
13.1900,    16.0,
13.2100,    13.0,
13.2300,    16.0,
13.2500,    14.0,
13.2700,     6.0,
13.2900,    19.0,
13.3100,    16.0,
13.3300,    22.0,
13.3500,    22.0,
13.3700,    13.0,
13.3900,    16.0,
13.4100,    17.0,
13.4300,    22.0,
13.4500,    18.0,
13.4700,    18.0,
13.4900,    26.0,
13.5100,    17.0,
13.5300,    14.0,
13.5500,    19.0,
13.5700,    16.0,
13.5900,    13.0,
13.6100,    21.0,
13.6300,    20.0,
13.6500,    21.0,
13.6700,    22.0,
13.6900,    17.0,
13.7100,    26.0,
13.7300,    11.0,
13.7500,    17.0,
13.7700,    14.0,
13.7900,    15.0,
13.8100,    17.0,
13.8300,    13.0,
13.8500,    19.0,
13.8700,    20.0,
13.8900,    14.0,
13.9100,    19.0,
13.9300,    15.0,
13.9500,    15.0,
13.9700,    16.0,
13.9900,    14.0,
14.0100,    11.0,
14.0300,    15.0,
14.0500,    14.0,
14.0700,    18.0,
14.0900,    18.0,
14.1100,    11.0,
14.1300,    15.0,
14.1500,    15.0,
14.1700,    15.0,
14.1900,    18.0,
14.2100,    27.0,
14.2300,    16.0,
14.2500,    11.0,
14.2700,    14.0,
14.2900,    14.0,
14.3100,    21.0,
14.3300,    16.0,
14.3500,    16.0,
14.3700,    10.0,
14.3900,     6.0,
14.4100,    11.0,
14.4300,    17.0,
14.4500,    19.0,
14.4700,    13.0,
14.4900,    14.0,
14.5100,    12.0,
14.5300,    13.0,
14.5500,    14.0,
14.5700,    16.0,
14.5900,    14.0,
14.6100,    16.0,
14.6300,    22.0,
14.6500,    18.0,
14.6700,    12.0,
14.6900,    10.0,
14.7100,     9.0,
14.7300,    22.0,
14.7500,    12.0,
14.7700,    13.0,
14.7900,    10.0,
14.8100,    11.0,
14.8300,    18.0,
14.8500,    11.0,
14.8700,    11.0,
14.8900,    22.0,
14.9100,    16.0,
14.9300,    14.0,
14.9500,    15.0,
14.9700,     9.0,
14.9900,    13.0,
15.0100,     7.0,
15.0300,    12.0,
15.0500,    16.0,
15.0700,    11.0,
15.0900,    20.0,
15.1100,     9.0,
15.1300,    15.0,
15.1500,     6.0,
15.1700,    18.0,
15.1900,    20.0,
15.2100,    11.0,
15.2300,    13.0,
15.2500,    11.0,
15.2700,    19.0,
15.2900,    12.0,
15.3100,    16.0,
15.3300,    13.0,
15.3500,    14.0,
15.3700,    13.0,
15.3900,    12.0,
15.4100,    14.0,
15.4300,    10.0,
15.4500,    10.0,
15.4700,     6.0,
15.4900,    15.0,
15.5100,    12.0,
15.5300,     7.0,
15.5500,     8.0,
15.5700,    15.0,
15.5900,    13.0,
15.6100,    11.0,
15.6300,    12.0,
15.6500,    13.0,
15.6700,    14.0,
15.6900,    12.0,
15.7100,    15.0,
15.7300,    11.0,
15.7500,    10.0,
15.7700,    13.0,
15.7900,    15.0,
15.8100,    13.0,
15.8300,    12.0,
15.8500,     9.0,
15.8700,    21.0,
15.8900,    12.0,
15.9100,     8.0,
15.9300,    11.0,
15.9500,    12.0,
15.9700,    10.0,
15.9900,    13.0,
16.0100,     6.0,
16.0300,    13.0,
16.0500,     6.0,
16.0700,    10.0,
16.0900,    12.0,
16.1100,    11.0,
16.1300,    10.0,
16.1500,     7.0,
16.1700,     8.0,
16.1900,     6.0,
16.2100,    19.0,
16.2300,    13.0,
16.2500,     6.0,
16.2700,     8.0,
16.2900,    11.0,
16.3100,     4.0,
16.3300,    13.0,
16.3500,    10.0,
16.3700,    18.0,
16.3900,     7.0,
16.4100,     9.0,
16.4300,    10.0,
16.4500,     8.0,
16.4700,     6.0,
16.4900,    10.0,
16.5100,     9.0,
16.5300,    18.0,
16.5500,     9.0,
16.5700,    16.0,
16.5900,    15.0,
16.6100,     9.0,
16.6300,     7.0,
16.6500,     4.0,
16.6700,    11.0,
16.6900,     4.0,
16.7100,    13.0,
16.7300,     6.0,
16.7500,    13.0,
16.7700,    10.0,
16.7900,     5.0,
16.8100,    10.0,
16.8300,    17.0,
16.8500,     9.0,
16.8700,    11.0,
16.8900,    10.0,
16.9100,     4.0,
16.9300,    11.0,
16.9500,    12.0,
16.9700,     9.0,
16.9900,     7.0,
17.0100,    13.0,
17.0300,    11.0,
17.0500,    17.0,
17.0700,    12.0,
17.0900,    13.0,
17.1100,    18.0,
17.1300,    22.0,
17.1500,    21.0,
17.1700,    24.0,
17.1900,    35.0,
17.2100,    64.0,
17.2300,    74.0,
17.2500,   105.0,
17.2700,   116.0,
17.2900,   162.0,
17.3100,   197.0,
17.3300,   222.0,
17.3500,   302.0,
17.3700,   306.0,
17.3900,   302.0,
17.4100,   329.0,
17.4300,   338.0,
17.4500,   331.0,
17.4700,   313.0,
17.4900,   247.0,
17.5100,   219.0,
17.5300,   182.0,
17.5500,   129.0,
17.5700,   114.0,
17.5900,    86.0,
17.6100,    52.0,
17.6300,    52.0,
17.6500,    21.0,
17.6700,    27.0,
17.6900,    13.0,
17.7100,     9.0,
17.7300,    12.0,
17.7500,    17.0,
17.7700,     7.0,
17.7900,     8.0,
17.8100,    11.0,
17.8300,     8.0,
17.8500,     4.0,
17.8700,    13.0,
17.8900,    11.0,
17.9100,     9.0,
17.9300,     9.0,
17.9500,     6.0,
17.9700,     6.0,
17.9900,     7.0,
18.0100,     5.0,
18.0300,     7.0,
18.0500,     8.0,
18.0700,    13.0,
18.0900,    12.0,
18.1100,    14.0,
18.1300,     5.0,
18.1500,     7.0,
18.1700,     7.0,
18.1900,     8.0,
18.2100,     7.0,
18.2300,    11.0,
18.2500,    10.0,
18.2700,     5.0,
18.2900,     8.0,
18.3100,     6.0,
18.3300,     4.0,
18.3500,     7.0,
18.3700,     3.0,
18.3900,     6.0,
18.4100,     3.0,
18.4300,     9.0,
18.4500,     8.0,
18.4700,     5.0,
18.4900,     8.0,
18.5100,     9.0,
18.5300,     8.0,
18.5500,     5.0,
18.5700,     7.0,
18.5900,     9.0,
18.6100,     7.0,
18.6300,     3.0,
18.6500,    14.0,
18.6700,     7.0,
18.6900,     3.0,
18.7100,     4.0,
18.7300,    14.0,
18.7500,     7.0,
18.7700,     4.0,
18.7900,     2.0,
18.8100,     5.0,
18.8300,    10.0,
18.8500,     6.0,
18.8700,     8.0,
18.8900,    13.0,
18.9100,     7.0,
18.9300,     9.0,
18.9500,     6.0,
18.9700,     8.0,
18.9900,     9.0,
19.0100,     6.0,
19.0300,     8.0,
19.0500,     8.0,
19.0700,     7.0,
19.0900,     8.0,
19.1100,     4.0,
19.1300,     5.0,
19.1500,     3.0,
19.1700,     5.0,
19.1900,     7.0,
19.2100,     7.0,
19.2300,     4.0,
19.2500,     2.0,
19.2700,     7.0,
19.2900,    12.0,
19.3100,    11.0,
19.3300,     6.0,
19.3500,    10.0,
19.3700,     6.0,
19.3900,    19.0,
19.4100,    14.0,
19.4300,    28.0,
19.4500,    35.0,
19.4700,    34.0,
19.4900,    31.0,
19.5100,    37.0,
19.5300,    57.0,
19.5500,    47.0,
19.5700,    52.0,
19.5900,    65.0,
19.6100,    51.0,
19.6300,    52.0,
19.6500,    39.0,
19.6700,    40.0,
19.6900,    35.0,
19.7100,    16.0,
19.7300,    15.0,
19.7500,    16.0,
19.7700,    14.0,
19.7900,    13.0,
19.8100,    13.0,
19.8300,    22.0,
19.8500,     8.0,
19.8700,    11.0,
19.8900,     6.0,
19.9100,    16.0,
19.9300,    12.0,
19.9500,    10.0,
19.9700,    12.0,
19.9900,    15.0,
20.0100,    10.0,
20.0300,    10.0,
20.0500,    11.0,
20.0700,     4.0,
20.0900,     0.0,
20.1100,     8.0,
20.1300,     2.0,
20.1500,     4.0,
20.1700,     5.0,
20.1900,     2.0,
20.2100,     3.0,
20.2300,     2.0,
20.2500,     4.0,
20.2700,     1.0,
20.2900,     4.0,
20.3100,     3.0,
20.3300,     4.0,
20.3500,     3.0,
20.3700,     2.0,
20.3900,     3.0,
20.4100,     1.0,
20.4300,     3.0,
20.4500,     2.0,
20.4700,     4.0,
#ENDOFDATA   :